File: data/190508_002_100mM_K4FeCN6_100mM_K3FeCN6_50mLmin_PEIS_C01.mpt
EC-Lab ASCII FILE
Nb header lines : 64

Potentio Electrochemical Impedance Spectroscopy

Run on channel : 1 (SN 5680)
User : dorhoff
Electrode connection : standard
Ewe ctrl range : min = -0.10 V, max = 0.10 V
Ewe,I filtering : 50 kHz
Safety Limits :
	Do not start on E overload
Channel : Floating
Acquisition started on : 05-08-2019 16:02:23
Saved on :
	File : 190508_002_100mM_K4FeCN6_100mM_K3FeCN6_50mLmin_PEIS_C01.mpr
	Directory : C:\Data\BioLogic\dorhoff\Flow_cell_5_cm2\Ex_11_FeCN6_FeCN6\
	Host : 10.41.26.176
Device : SP-300 (SN 0955)
Address : USB
EC-Lab for windows v11.20 (software)
Internet server v11.20 (firmware)
Command interpretor v11.20 (firmware)
Electrode material :
Initial state :
Electrolyte :
Comments :
Current amplifier : B-10A5V
Cable : standard
Electrode surface area : 0.001 cm²
Characteristic mass : 0.001 g
Equivalent Weight : 0.000 g/eq.
Density : 0.000 g/cm3
Record EIS quality indicators
Cycle Definition : Charge/Discharge alternance
Mode                Single sine
E (V)               0.0000
vs.                 Eoc
tE (h:m:s)          0:00:0.0000
record              0
dI                  0.000
unit dI             mA
dt (s)              0.000
fi                  100.000
unit fi             kHz
ff                  0.100
unit ff             Hz
Nd                  12
Points              per decade
spacing             Logarithmic
Va (mV)             10.0
pw                  0.10
Na                  2
corr                0
E range min (V)     -0.100
E range max (V)     0.100
I Range             Auto
Bandwidth           8
nc cycles           0
goto Ns'            0
nr cycles           0
inc. cycle          0

freq/Hz	Re(Z)/Ohm	-Im(Z)/Ohm	|Z|/Ohm	Phase(Z)/deg	time/s	<Ewe>/V	<I>/mA	Cs/µF	Cp/µF	cycle number	I Range	|Ewe|/V	|I|/A	THD Ewe/%	NSD Ewe/%	NSR Ewe/%	THD I/%	NSD I/%	NSR I/%	Re(Y)/Ohm-1	Im(Y)/Ohm-1	|Y|/Ohm-1	Phase(Y)/deg
100004	0.209257	-0.0888113	0.227324	22.997	2.88047	-0.000101717	-17.4558	-17.9199	-2.73516	1	65	0.00982399	0.0432159	0.204178	0.163624	2.9394	0.552936	0.217222	7.55013	4.04941	-1.71862	4.39902	-22.997
82318.9	0.211394	-0.0722177	0.223389	18.8616	3.69949	-0.00010222	-17.3876	-26.7718	-2.79796	1	65	0.0104127	0.0466123	0.173067	0.0639141	2.73119	0.355856	0.205719	6.97695	4.23612	-1.44717	4.4765	-18.8616
67760.9	0.213049	-0.0584821	0.22093	15.3496	4.51847	-0.000103283	-17.1692	-40.1622	-2.81419	1	65	0.0105093	0.0475682	0.139283	0.0875075	2.70875	0.323962	0.269723	6.97842	4.36485	-1.19815	4.52631	-15.3496
55782.4	0.214546	-0.0479236	0.219833	12.5916	5.33748	-0.000110721	-17.2126	-59.5352	-2.82936	1	65	0.0105011	0.0477686	0.153442	0.064079	2.71451	0.410816	0.288657	6.92501	4.43951	-0.991664	4.54891	-12.5916
45919.3	0.21572	-0.0386845	0.219161	10.1666	6.15648	-0.000100431	-17.0504	-89.5958	-2.79148	1	65	0.0104858	0.0478451	0.142915	0.0605878	2.7612	0.342017	0.207912	6.9068	4.49121	-0.805396	4.56285	-10.1666
37800.6	0.216111	-0.0311966	0.218351	8.21417	6.97547	-0.000100654	-17.1864	-134.963	-2.75499	1	65	0.010449	0.0478543	0.13485	0.0878364	2.74186	0.297114	0.111934	6.88654	4.53281	-0.654332	4.57979	-8.21417
31110.8	0.216841	-0.0247962	0.218254	6.52356	7.79448	-9.48197e-05	-17.1739	-206.312	-2.663	1	65	0.0104147	0.0477183	0.14147	0.0945315	2.72137	0.286615	0.222968	6.83503	4.55216	-0.520549	4.58182	-6.52356
25608.7	0.217749	-0.02029	0.218692	5.32348	8.61349	-9.99274e-05	-17.2497	-306.303	-2.63663	1	65	0.0103632	0.0473872	0.152959	0.0853966	2.77867	0.519401	0.243389	6.86796	4.55292	-0.424244	4.57264	-5.32348
21080.8	0.218239	-0.0159865	0.218824	4.18957	9.43249	-9.91818e-05	-17.1323	-472.258	-2.52058	1	65	0.0103083	0.0471076	0.160557	0.103298	2.80694	0.355581	0.191947	6.99613	4.55768	-0.333861	4.56989	-4.18957
17360.1	0.218694	-0.012851	0.219071	3.36299	10.2515	-9.39249e-05	-17.2046	-713.395	-2.45491	1	65	0.0102529	0.0468018	0.17941	0.0637751	2.83417	0.339758	0.217357	6.94242	4.55687	-0.267774	4.56473	-3.36299
14288.9	0.218827	-0.00990182	0.219051	2.59084	11.0705	-9.85666e-05	-17.1156	-1124.88	-2.29852	1	65	0.0101664	0.0464112	0.194661	0.0875696	2.78654	0.402382	0.164324	7.16533	4.56049	-0.20636	4.56516	-2.59084
11755.9	0.219294	-0.0077508	0.21943	2.02424	11.7615	-9.78769e-05	-17.1163	-1746.7	-2.17931	1	65	0.0109656	0.0499728	0.147093	0.148601	2.65306	0.41706	0.14416	6.62445	4.55441	-0.160973	4.55725	-2.02424
9677.48	0.219519	-0.0062716	0.219609	1.63648	12.5805	-0.000204878	-17.4582	-2622.29	-2.13864	1	65	0.0102987	0.0468955	0.13921	0.072003	2.77969	0.4206	0.184172	7.11596	4.5517	-0.130041	4.55356	-1.63648
8145.96	0.219904	-0.00444563	0.219949	1.15815	13.2887	-0.000203927	-17.4036	-4394.86	-1.79543	1	65	0.0107491	0.048871	0.190385	0.0725748	2.66586	0.31219	0.197166	6.77239	4.54559	-0.0918948	4.54652	-1.15815
6701.1	0.220056	-0.00353852	0.220084	0.921243	14.1857	-0.000209501	-17.4726	-6712	-1.73507	1	65	0.0101055	0.0459166	0.140697	0.101604	2.78779	0.404441	0.204241	7.14573	4.54312	-0.0730539	4.54371	-0.921243
5518.82	0.220856	-0.00221862	0.220867	0.575547	14.9485	-0.000204524	-17.5434	-12998.5	-1.31158	1	65	0.0103271	0.046757	0.161473	0.0717975	2.78313	0.417696	0.24532	7.15509	4.52738	-0.04548	4.52761	-0.575547
4446.42	0.220984	-0.001198	0.220987	0.310608	15.7237	-0.000204095	-17.5581	-29878.2	-0.878073	1	65	0.0104825	0.0474349	0.195208	0.101563	2.74196	0.36464	0.24496	7.01672	4.52508	-0.0245314	4.52515	-0.310608
3658.83	0.221181	-3.79193e-05	0.221181	0.0098228	16.4948	-0.000205344	-17.5488	-1.14714e+06	-0.0337165	1	65	0.0105901	0.0478799	0.153736	0.13004	2.69423	0.459449	0.156237	6.96228	4.52119	-0.000775114	4.52119	-0.0098228
3012.9	0.221016	0.000375076	0.221016	-0.0972341	17.2655	-0.000199304	-17.6376	140837	0.405609	1	65	0.0106446	0.0481623	0.14335	0.185807	2.67207	0.372566	0.178098	6.88743	4.52455	0.00767842	4.52456	0.0972341
2479.2	0.221596	0.000685494	0.221597	-0.17724	18.0368	-0.000202268	-17.5538	93649.3	0.896153	1	65	0.0106858	0.0482218	0.18261	0.12035	2.68354	0.373657	0.340547	6.90324	4.51267	0.0139596	4.51269	0.17724
2040.65	0.221664	0.00156162	0.221669	-0.403642	18.8077	-0.000201504	-17.5566	49943.1	2.47865	1	65	0.0107118	0.0483232	0.156791	0.101298	2.72866	0.43588	0.363907	6.82678	4.51111	0.0317808	4.51123	0.403642
1680.54	0.222779	0.00170315	0.222785	-0.438019	19.5787	-0.00020059	-17.551	55605.7	3.24976	1	65	0.0107358	0.048189	0.125609	0.0751517	2.66018	0.377523	0.270847	6.9186	4.4885	0.0343146	4.48863	0.438019
1382.79	0.22316	0.00269594	0.223176	-0.692141	20.3501	-0.000197831	-17.5613	42692.7	6.22985	1	65	0.0107458	0.0481494	0.171846	0.130781	2.64342	0.353253	0.185903	6.92712	4.48044	0.054127	4.48076	0.692141
1138.18	0.223435	0.00321402	0.223458	-0.824121	21.1211	-0.000197943	-17.4174	43507.2	9.00051	1	65	0.0107576	0.0481415	0.170836	0.0654387	2.63547	0.418628	0.172982	6.99451	4.47466	0.0643662	4.47512	0.824121
937.097	0.223449	0.00368935	0.22348	-0.945918	21.8913	-0.000203424	-17.306	46034.8	12.5461	1	65	0.0107646	0.0481681	0.204533	0.0783306	2.66363	0.351914	0.239739	6.92521	4.47406	0.0738708	4.47467	0.945918
771.232	0.22411	0.00357881	0.224139	-0.914878	22.6624	-0.000189517	-17.3779	57662.8	14.7008	1	65	0.010763	0.0480195	0.14182	0.07647	2.67939	0.369247	0.197906	6.91064	4.46095	0.0712368	4.46152	0.914878
635.203	0.224615	0.00442607	0.224659	-1.12887	23.4337	-0.000196974	-17.409	56609.6	21.9725	1	65	0.0107614	0.0479011	0.11813	0.0323821	2.61184	0.370462	0.167794	6.94651	4.45034	0.0876944	4.4512	1.12887
522.825	0.225446	0.00451061	0.225491	-1.14619	24.2066	-0.000199416	-17.4634	67488.4	27.0047	1	65	0.0107702	0.0477631	0.145254	0.0545928	2.62931	0.384746	0.163679	6.93703	4.43387	0.0887105	4.43476	1.14619
430.413	0.225653	0.0050511	0.22571	-1.28231	24.9776	-0.000197104	-17.4659	73206.3	36.6623	1	65	0.0107636	0.0476878	0.193264	0.0963842	2.62359	0.431572	0.283826	6.93301	4.42936	0.0991483	4.43047	1.28231
354.207	0.226115	0.00509552	0.226172	-1.29095	25.7492	-0.000204691	-17.4955	88181	44.7582	1	65	0.0107639	0.0475916	0.164633	0.0595917	2.59963	0.486775	0.235025	6.93562	4.42029	0.0996115	4.42141	1.29095
291.586	0.227192	0.00594919	0.22727	-1.49999	26.5177	-0.000204859	-17.5264	91747.8	62.8675	1	65	0.0107694	0.0473858	0.153703	0.0909732	2.6721	0.348131	0.196874	7.05516	4.39854	0.115179	4.40005	1.49999
240.077	0.227854	0.0064742	0.227946	-1.62755	27.2887	-0.000217759	-17.4964	102396	82.602	1	65	0.0107671	0.0472352	0.134169	0.082755	2.71098	0.404591	0.214391	7.09638	4.38523	0.124601	4.387	1.62755
197.535	0.228224	0.00683827	0.228326	-1.71624	28.0643	-0.000209892	-17.4869	117823	105.684	1	65	0.0107693	0.0471664	0.121085	0.0759718	2.6463	0.475215	0.138818	7.01655	4.37773	0.13117	4.37969	1.71624
162.658	0.228939	0.0075279	0.229063	-1.8833	28.8396	-0.0002043	-17.4942	129978	140.382	1	65	0.0107634	0.0469888	0.186509	0.0719587	2.68996	0.347728	0.245038	7.07634	4.36326	0.143471	4.36562	1.8833
133.929	0.230064	0.00811558	0.230207	-2.02029	29.6124	-0.000203331	-17.4767	146429	181.982	1	65	0.0107657	0.046765	0.172501	0.0954169	2.64049	0.352884	0.117251	7.07392	4.34121	0.153137	4.34391	2.02029
110.247	0.23087	0.00887631	0.231041	-2.20178	30.6293	-0.000216939	-0.0217663	162638	240.053	1	37	0.0107685	0.0466084	0.172437	0.093839	2.50602	0.122726	0.0428465	0.516804	4.32504	0.166286	4.32824	2.20178
90.7257	0.232008	0.00963093	0.232208	-2.37705	31.3971	-0.000210694	0.0367537	182147	313.331	1	37	0.0107748	0.0464016	0.126002	0.0618708	2.4423	0.120381	0.0433349	0.452836	4.30278	0.178613	4.30649	2.37705
74.6891	0.233155	0.0103315	0.233384	-2.53721	32.1696	-0.000215186	0.0273236	206253	404.189	1	37	0.0107734	0.0461616	0.178126	0.0877048	2.46982	0.119206	0.0316378	0.440956	4.28058	0.18968	4.28478	2.53721
61.4754	0.234381	0.0109899	0.234638	-2.68458	32.9309	-0.000211495	0.00928361	235573	516.79	1	37	0.0107738	0.0459166	0.125469	0.0735606	2.50769	0.123149	0.045024	0.458666	4.2572	0.199616	4.26188	2.68458
50.5991	0.235604	0.0119955	0.235909	-2.91462	33.6984	-0.000209855	0.013719	262216	677.96	1	37	0.0107711	0.0456579	0.162362	0.0545827	2.45267	0.127243	0.0545257	0.456695	4.23343	0.21554	4.23891	2.91462
41.6667	0.237208	0.0127428	0.23755	-3.07497	34.4557	-0.000219287	0.0375923	299754	862.553	1	37	0.0107757	0.0453618	0.147277	0.0636901	2.4707	0.120305	0.0611838	0.442838	4.20358	0.225816	4.20964	3.07497
34.2868	0.238684	0.01352	0.239067	-3.24199	35.2359	-0.000212241	-0.00657604	343333	1098.07	1	37	0.0107736	0.0450651	0.172533	0.0518644	2.49718	0.133811	0.0990771	0.46917	4.17624	0.236558	4.18293	3.24199
28.2379	0.240185	0.0147332	0.240637	-3.51019	36.0282	-0.000209184	0.0567691	382551	1434.04	1	37	0.0107687	0.0447508	0.117895	0.0348911	2.44742	0.130554	0.126548	0.485425	4.14784	0.254433	4.15564	3.51019
23.2377	0.24212	0.015404	0.242609	-3.64034	36.8229	-0.000199379	0.0478423	444624	1792.45	1	37	0.0107734	0.0444064	0.215334	0.0663212	2.43503	0.1268	0.108448	0.459788	4.11354	0.26171	4.12185	3.64034
19.1248	0.243924	0.0167941	0.244501	-3.93859	37.6069	-0.000204356	0.0308086	495524	2337.86	1	37	0.0107709	0.0440527	0.153381	0.0928859	2.47618	0.121178	0.161275	0.471708	4.0803	0.280928	4.08996	3.93859
15.751	0.24584	0.0175996	0.246469	-4.0948	38.3582	-0.000209762	0.0633664	574128	2927.46	1	37	0.0107703	0.0436981	0.156279	0.0891758	2.44121	0.124428	0.23367	0.486949	4.04694	0.289719	4.0573	4.0948
12.9632	0.248168	0.0184761	0.248855	-4.25781	39.1902	-0.000206034	0.0118647	664504	3662.9	1	37	0.0107722	0.0432872	0.133631	0.0381965	1.78785	0.126434	0.280046	0.402841	4.00731	0.298344	4.0184	4.25781
10.6728	0.250172	0.0204093	0.251003	-4.66393	39.9321	-0.000205922	-0.0247094	730657	4830.73	1	37	0.0107663	0.0428932	0.182008	0.0540615	2.40817	0.136095	0.236263	0.464338	3.97083	0.323945	3.98402	4.66393
8.78796	0.25271	0.020633	0.253551	-4.66768	40.7453	-0.000205139	-0.00248542	877746	5812.51	1	37	0.0107684	0.0424702	0.102168	0.0407673	1.74917	0.146314	0.370838	0.340568	3.9309	0.320946	3.94398	4.66768
7.22714	0.255161	0.0225936	0.25616	-5.06013	41.6335	-0.000201737	0.0347967	974696	7582.58	1	37	0.0107668	0.0420316	0.14172	0.0491227	1.75408	0.155569	0.501186	0.348849	3.8886	0.344321	3.90381	5.06013
5.95238	0.257948	0.0231291	0.258983	-5.12378	42.6308	-0.000205841	0.0274428	1.15603e+06	9220.35	1	37	0.010768	0.041578	0.162197	0.0383708	1.39857	0.140712	0.460445	0.303319	3.84583	0.34484	3.86126	5.12378
4.89966	0.260816	0.0250357	0.262015	-5.48302	43.7681	-0.000197769	0.0990811	1.29746e+06	11845.8	1	37	0.0107681	0.0410972	0.141903	0.03827	1.3957	0.177633	0.635977	0.304541	3.79911	0.364677	3.81658	5.48302
4.03122	0.264261	0.0269489	0.265631	-5.82281	45.0791	-0.000199896	-0.136528	1.46502e+06	15078.8	1	37	0.010767	0.0405335	0.122834	0.0373123	1.21378	0.412375	0.518758	0.342557	3.74519	0.381929	3.76462	5.82281
3.32093	0.266925	0.0280131	0.268391	-5.99112	46.6023	-0.000209899	0.30781	1.7108e+06	18637.4	1	37	0.0107686	0.0401228	0.117136	0.0363453	1.099	0.499139	0.15305	0.313952	3.70556	0.388889	3.72591	5.99112
2.7326	0.270189	0.0296327	0.271809	-6.25885	48.3869	-0.00020379	0.322628	1.9655e+06	23360.9	1	37	0.0107655	0.0396071	0.0950688	0.0373972	1.03274	0.541195	0.396081	0.383811	3.65713	0.401092	3.67906	6.25885
2.25014	0.274538	0.0311517	0.2763	-6.47363	50.4891	-0.000210994	-0.157012	2.27054e+06	28862.3	1	37	0.0107667	0.0389676	0.104025	0.0419523	0.971692	0.437726	1.17196	0.480689	3.59618	0.408057	3.61926	6.47363
1.85131	0.27747	0.032073	0.279318	-6.59361	52.9817	-0.000197717	-0.0385442	2.68042e+06	35341.5	1	37	0.0107641	0.0385371	0.0943447	0.0596433	0.762692	0.375808	1.32441	0.562704	3.55647	0.411096	3.58015	6.59361
1.52469	0.28636	0.0320868	0.288152	-6.39336	55.9461	-0.000204329	0.0580573	3.25322e+06	40338.8	1	37	0.0107664	0.0373638	0.116346	0.0489043	0.704707	0.61056	0.13849	0.254277	3.44881	0.386441	3.47039	6.39336
1.25542	0.286283	0.0346763	0.288376	-6.90635	61.1249	-0.000191915	0.0784999	3.65592e+06	52862.2	1	38	0.0107586	0.0373077	0.100079	0.0346976	0.630111	0.337359	1.42913	0.681803	3.44253	0.41698	3.4677	6.90635
1.03272	0.291438	0.036789	0.29375	-7.19455	65.3677	-0.000189566	0.0449064	4.1891e+06	65705.1	1	38	0.0107606	0.0366318	0.103439	0.033876	0.579461	1.69022	0.200736	0.378327	3.37745	0.426345	3.40425	7.19455
0.850342	0.296519	0.0383882	0.298993	-7.37664	70.451	-0.000205214	0.00468855	4.87561e+06	80371.2	1	38	0.0107622	0.0359948	0.106391	0.0321787	0.522658	0.472016	0.236419	1.59384	3.31688	0.429412	3.34456	7.37664
0.699606	0.301737	0.0398657	0.304359	-7.52636	76.5625	-0.000202915	0.0257389	5.70647e+06	97902.4	1	38	0.0107618	0.0353588	0.0996884	0.0340543	0.475086	0.73102	0.234366	1.50545	3.25729	0.430355	3.28559	7.52636
0.576483	0.308484	0.0414429	0.311255	-7.65151	83.926	-0.000196398	0.0535891	6.66168e+06	118100	1	38	0.010762	0.034576	0.101159	0.0398995	0.419771	1.07534	0.144327	1.31916	3.18419	0.427775	3.21279	7.65151
0.474131	0.315292	0.0420705	0.318086	-7.60028	92.8256	-0.00019474	0.0400832	7.97891e+06	139576	1	38	0.0107619	0.0338333	0.10676	0.041156	0.386508	0.425131	0.137277	1.74267	3.11618	0.415803	3.1438	7.60028
0.390654	0.322652	0.0414916	0.325309	-7.32777	103.574	-0.000190863	0.0425404	9.819e+06	159734	1	38	0.0107593	0.033074	0.0941847	0.0882995	0.352825	1.22557	0.115735	1.3111	3.0489	0.392075	3.074	7.32777
0.321363	0.32975	0.0398098	0.332145	-6.88384	116.587	-0.000179897	0.06269	1.24404e+07	178715	1	38	0.0107599	0.0323953	0.0926336	0.0501738	0.320772	0.146708	0.0835636	1.90058	2.98903	0.360857	3.01074	6.88384
0.264472	0.336132	0.0368696	0.338148	-6.25962	132.347	-0.00018423	0.0516207	1.6322e+07	194042	1	38	0.0107629	0.031829	0.0976194	0.046623	0.294434	0.132474	0.0533463	1.78198	2.93965	0.322444	2.95728	6.25962
0.217801	0.341229	0.0336803	0.342887	-5.637	151.431	-0.000200774	-0.013626	2.16963e+07	209332	1	38	0.0107581	0.031375	0.0981768	0.0377734	0.270048	0.135226	0.0550294	1.81067	2.90231	0.286466	2.91641	5.637
0.179313	0.34579	0.0302514	0.347111	-4.99978	174.559	-0.000192632	0.0275533	2.93402e+07	222852	1	38	0.010759	0.0309959	0.101344	0.0472576	0.251216	0.132656	0.0608359	1.93467	2.86996	0.251078	2.88092	4.99978
0.14758	0.349599	0.0264008	0.350594	-4.31863	202.607	-0.000193416	0.0280603	4.08486e+07	231633	1	38	0.0107617	0.0306957	0.105161	0.0601542	0.226477	0.134814	0.0620251	1.8331	2.8442	0.214787	2.8523	4.31863
0.121509	0.352101	0.0225026	0.35282	-3.65678	236.621	-0.000175983	0.0481093	5.82076e+07	236778	1	38	0.0107574	0.0304899	0.0983156	0.0507463	0.213528	0.129704	0.0603758	1.92361	2.82854	0.180771	2.83431	3.65678
0.0999518	0.353839	0.0190718	0.354353	-3.08524	277.918	-0.000196981	0.023929	8.34905e+07	241852	1	38	0.0107593	0.0303633	0.0971549	0.061409	0.200768	0.125831	0.0471506	1.85872	2.81795	0.151887	2.82205	3.08524